wavelength,reflectivity
1300.0,58.025
1302.0,58.02
1304.0,58.09
1306.0,58.18
1308.0,58.35
1310.0,58.44
1312.0,58.4
1314.0,58.12
1316.0,57.79
1318.0,57.57
1320.0,57.54
1322.0,57.55
1324.0,57.58
1326.0,57.57
1328.0,57.5
1330.0,57.43
1332.0,57.36
1334.0,57.32
1336.0,57.3
1338.0,57.28
1340.0,57.19
1342.0,57.07
1344.0,57.01
1346.0,56.91
1348.0,56.77
1350.0,56.62
1352.0,56.43
1354.0,56.3
1356.0,56.265
1358.0,56.29
1360.0,56.335
1362.0,56.37
1364.0,56.39
1366.0,56.37
1368.0,56.29
1370.0,56.14
1372.0,55.93
1374.0,55.65
1376.0,55.34
1378.0,54.99
1380.0,54.6
1382.0,54.19
1384.0,53.715
1386.0,53.175
1388.0,52.62
1390.0,52.13
1392.0,51.775
1394.0,51.61
1396.0,51.54
1398.0,51.55
1400.0,51.57
1402.0,51.56
1404.0,51.5
1406.0,51.34
1408.0,51.0
1410.0,50.48
1412.0,49.87
1414.0,49.43
1416.0,49.28
1418.0,49.33
1420.0,49.3
1422.0,48.89
1424.0,48.14
1426.0,47.37
1428.0,46.87
1430.0,46.85
1432.0,47.31
1434.0,48.05
1436.0,48.94
1438.0,49.82
1440.0,50.65
1442.0,51.27
1444.0,51.72
1446.0,51.99
1448.0,52.06
1450.0,52.0
1452.0,51.87
1454.0,51.63
1456.0,51.34
1458.0,51.05
1460.0,50.75
1462.0,50.5
1464.0,50.35
1466.0,50.21
1468.0,50.07
1470.0,49.84
1472.0,49.45
1474.0,48.77
1476.0,47.73
1478.0,46.31
1480.0,44.79
1482.0,43.56
1484.0,43.19
1486.0,43.89
1488.0,45.42
1490.0,47.32
1492.0,49.14
1494.0,50.55
1496.0,51.51
1498.0,52.13
1500.0,52.54
1502.0,52.85
1504.0,53.17
1506.0,53.52
1508.0,53.89
1510.0,54.31
1512.0,54.73
1514.0,55.14
1516.0,55.52
1518.0,55.88
1520.0,56.13
1522.0,56.32
1524.0,56.445
1526.0,56.6
1528.0,56.74
1530.0,56.85
1532.0,56.94
1534.0,57.01
1536.0,57.08
1538.0,57.15
1540.0,57.23
1542.0,57.34
1544.0,57.415
1546.0,57.485
1548.0,57.53
1550.0,57.59
1552.0,57.64
1554.0,57.7
1556.0,57.71
1558.0,57.72
1560.0,57.72
1562.0,57.71
1564.0,57.72
1566.0,57.77
1568.0,57.83
1570.0,57.88
1572.0,57.88
1574.0,57.87
1576.0,57.83
1578.0,57.81
1580.0,57.78
1582.0,57.77
1584.0,57.79
1586.0,57.82
1588.0,57.87
1590.0,57.92
1592.0,57.94
1594.0,57.95
1596.0,57.94
1598.0,57.96
1600.0,57.98
1602.0,57.98
1604.0,58.0
1606.0,58.04
1608.0,58.06
1610.0,58.04
1612.0,58.01
1614.0,57.98
1616.0,58.01
1618.0,58.025
1620.0,58.05
1622.0,58.06
1624.0,58.07
1626.0,58.07
1628.0,58.04
1630.0,58.05
1632.0,58.04
1634.0,58.04
1636.0,58.06
1638.0,58.05
1640.0,58.07
1642.0,58.05
1644.0,58.01
1646.0,58.01
1648.0,58.0
1650.0,58.01
1652.0,57.97
1654.0,57.88
1656.0,57.84
1658.0,57.81
1660.0,57.77
1662.0,57.7
1664.0,57.64
1666.0,57.64
1668.0,57.63
1670.0,57.59
1672.0,57.46
1674.0,57.37
1676.0,57.32
1678.0,57.32
1680.0,57.305
1682.0,57.26
1684.0,57.21
1686.0,57.17
1688.0,57.14
1690.0,57.11
1692.0,57.05
1694.0,57.02
1696.0,57.02
1698.0,56.99
1700.0,56.95
1702.0,56.92
1704.0,56.89
1706.0,56.85
1708.0,56.75
1710.0,56.66
1712.0,56.58
1714.0,56.5
1716.0,56.42
1718.0,56.335
1720.0,56.23
1722.0,56.085
1724.0,55.905
1726.0,55.7
1728.0,55.5
1730.0,55.295
1732.0,55.04
1734.0,54.74
1736.0,54.39
1738.0,54.075
1740.0,53.76
1742.0,53.44
1744.0,53.07
1746.0,52.66
1748.0,52.29
1750.0,51.94
1752.0,51.57
1754.0,51.19
1756.0,50.82
1758.0,50.52
1760.0,50.28
1762.0,50.085
1764.0,49.86
1766.0,49.62
1768.0,49.43
1770.0,49.35
1772.0,49.38
1774.0,49.59
1776.0,49.9
1778.0,50.26
1780.0,50.64
1782.0,51.03
1784.0,51.47
1786.0,52.0
1788.0,52.56
1790.0,53.175
1792.0,53.77
1794.0,54.31
1796.0,54.71
1798.0,54.97
1800.0,55.17
1802.0,55.28
1804.0,55.41
1806.0,55.53
1808.0,55.59
1810.0,55.63
1812.0,55.65
1814.0,55.68
1816.0,55.75
1818.0,55.83
1820.0,55.9
1822.0,55.95
1824.0,56.0
1826.0,56.01
1828.0,56.0
1830.0,55.97
1832.0,55.92
1834.0,55.93
1836.0,55.93
1838.0,55.88
1840.0,55.81
1842.0,55.75
1844.0,55.69
1846.0,55.655
1848.0,55.62
1850.0,55.59
1852.0,55.56
1854.0,55.49
1856.0,55.38
1858.0,55.25
1860.0,55.15
1862.0,55.06
1864.0,54.93
1866.0,54.81
1868.0,54.6
1870.0,54.39
1872.0,54.14
1874.0,53.86
1876.0,53.6
1878.0,53.3
1880.0,52.995
1882.0,52.72
1884.0,52.43
1886.0,52.135
1888.0,51.83
1890.0,51.46
1892.0,51.09
1894.0,50.73
1896.0,50.42
1898.0,50.08
1900.0,49.72
1902.0,49.41
1904.0,49.1
1906.0,48.87
1908.0,48.6
1910.0,48.38
1912.0,48.24
1914.0,48.11
1916.0,48.09
1918.0,48.03
1920.0,48.0
1922.0,47.98
1924.0,47.94
1926.0,47.98
1928.0,48.02
1930.0,48.04
1932.0,48.06
1934.0,48.07
1936.0,48.08
1938.0,48.12
1940.0,48.17
1942.0,48.24
1944.0,48.28
1946.0,48.27
1948.0,48.23
1950.0,48.21
1952.0,48.2
1954.0,48.17
1956.0,48.15
1958.0,48.1
1960.0,48.05
1962.0,48.03
1964.0,48.02
1966.0,48.01
1968.0,48.05
1970.0,48.09
1972.0,48.16
1974.0,48.26
1976.0,48.35
1978.0,48.44
1980.0,48.51
1982.0,48.56
1984.0,48.63
1986.0,48.67
1988.0,48.65
1990.0,48.56
1992.0,48.42
1994.0,48.26
1996.0,48.03
1998.0,47.76
2000.0,47.48
2002.0,47.27
2004.0,47.07
2006.0,46.86
2008.0,46.61
2010.0,46.41
2012.0,46.24
2014.0,46.18
2016.0,46.16
2018.0,46.19
2020.0,46.23
2022.0,46.23
2024.0,46.23
2026.0,46.18
2028.0,46.12
2030.0,45.99
2032.0,45.82
2034.0,45.65
2036.0,45.52
2038.0,45.41
2040.0,45.25
2042.0,45.1
2044.0,44.97
2046.0,44.83
2048.0,44.63
2050.0,44.4
2052.0,44.2
2054.0,44.04
2056.0,43.89
2058.0,43.78
2060.0,43.71
2062.0,43.66
2064.0,43.62
2066.0,43.55
2068.0,43.51
2070.0,43.49
2072.0,43.46
2074.0,43.37
2076.0,43.29
2078.0,43.19
2080.0,43.07
2082.0,42.92
2084.0,42.75
2086.0,42.61
2088.0,42.42
2090.0,42.21
2092.0,41.93
2094.0,41.64
2096.0,41.33
2098.0,40.98
2100.0,40.62
2102.0,40.18
2104.0,39.71
2106.0,39.17
2108.0,38.59
2110.0,37.96
2112.0,37.36
2114.0,36.74
2116.0,36.09
2118.0,35.43
2120.0,34.75
2122.0,34.09
2124.0,33.47
2126.0,32.92
2128.0,32.5
2130.0,32.09
2132.0,31.68
2134.0,31.33
2136.0,30.985
2138.0,30.64
2140.0,30.25
2142.0,29.83
2144.0,29.46
2146.0,29.08
2148.0,28.68
2150.0,28.23
2152.0,27.76
2154.0,27.25
2156.0,26.81
2158.0,26.44
2160.0,26.24
2162.0,26.15
2164.0,26.09
2166.0,26.04
2168.0,25.97
2170.0,25.94
2172.0,25.96
2174.0,26.08
2176.0,26.23
2178.0,26.37
2180.0,26.36
2182.0,26.29
2184.0,26.24
2186.0,26.43
2188.0,26.765
2190.0,27.21
2192.0,27.59
2194.0,27.96
2196.0,28.47
2198.0,29.11
2200.0,29.76
2202.0,30.14
2204.0,30.015
2206.0,29.35
2208.0,28.36
2210.0,27.53
2212.0,27.27
2214.0,27.78
2216.0,28.97
2218.0,30.52
2220.0,32.13
2222.0,33.73
2224.0,35.27
2226.0,36.66
2228.0,37.78
2230.0,38.59
2232.0,39.14
2234.0,39.56
2236.0,39.94
2238.0,40.31
2240.0,40.69
2242.0,41.03
2244.0,41.33
2246.0,41.54
2248.0,41.66
2250.0,41.8
2252.0,41.96
2254.0,42.01
2256.0,41.93
2258.0,41.85
2260.0,41.85
2262.0,41.9
2264.0,41.9
2266.0,41.81
2268.0,41.7
2270.0,41.57
2272.0,41.46
2274.0,41.33
2276.0,41.2
2278.0,41.1
2280.0,40.92
2282.0,40.79
2284.0,40.66
2286.0,40.5
2288.0,40.325
2290.0,40.09
2292.0,39.81
2294.0,39.42
2296.0,38.98
2298.0,38.42
2300.0,37.75
2302.0,36.92
2304.0,35.97
2306.0,34.95
2308.0,33.92
2310.0,32.97
2312.0,32.18
2314.0,31.66
2316.0,31.37
2318.0,31.3
2320.0,31.5
2322.0,31.85
2324.0,32.35
2326.0,32.835
2328.0,33.34
2330.0,33.86
2332.0,34.38
2334.0,34.88
2336.0,35.295
2338.0,35.73
2340.0,36.03
2342.0,36.26
2344.0,36.43
2346.0,36.57
2348.0,36.625
2350.0,36.59
2352.0,36.52
2354.0,36.51
2356.0,36.56
2358.0,36.6
2360.0,36.61
2362.0,36.5
2364.0,36.39
2366.0,36.24
2368.0,36.09
2370.0,35.835
2372.0,35.42
2374.0,34.85
2376.0,34.15
2378.0,33.48
2380.0,32.73
2382.0,31.95
2384.0,31.15
2386.0,30.375
2388.0,29.6
2390.0,28.82
2392.0,28.18
2394.0,27.72
2396.0,27.35
2398.0,27.06
2400.0,26.91
2402.0,26.87
2404.0,26.85
2406.0,26.84
2408.0,26.81
2410.0,26.74
2412.0,26.6
2414.0,26.35
2416.0,25.94
2418.0,25.51
2420.0,24.99
2422.0,24.45
2424.0,23.93
2426.0,23.52
2428.0,23.07
2430.0,22.66
2432.0,22.3
2434.0,22.14
2436.0,22.15
2438.0,22.34
2440.0,22.56
2442.0,22.79
2444.0,22.99
2446.0,23.06
2448.0,23.02
2450.0,22.93
2452.0,22.82
2454.0,22.64
2456.0,22.37
2458.0,22.04
2460.0,21.64
2462.0,21.27
2464.0,21.1
2466.0,21.11
2468.0,21.25
2470.0,21.52
2472.0,21.81
2474.0,22.17
2476.0,22.42
2478.0,22.57
2480.0,22.51
2482.0,22.27
2484.0,21.84
2486.0,21.28
2488.0,20.71
2490.0,20.25
2492.0,19.92
2494.0,19.53
2496.0,19.1
2498.0,18.48
2500.0,17.88
