wavelength,reflectivity
1300.0,52.36
1302.0,52.2
1304.0,52.17
1306.0,52.3
1308.0,52.35
1310.0,52.17
1312.0,52.16
1314.0,52.18
1316.0,52.13
1318.0,52.12
1320.0,52.24
1322.0,52.16
1324.0,52.205
1326.0,52.28
1328.0,52.22
1330.0,52.17
1332.0,52.19
1334.0,52.17
1336.0,52.17
1338.0,52.24
1340.0,52.3
1342.0,52.3
1344.0,52.33
1346.0,52.35
1348.0,52.37
1350.0,52.38
1352.0,52.42
1354.0,52.42
1356.0,52.41
1358.0,52.45
1360.0,52.55
1362.0,52.64
1364.0,52.69
1366.0,52.72
1368.0,52.72
1370.0,52.74
1372.0,52.72
1374.0,52.71
1376.0,52.7
1378.0,52.73
1380.0,52.76
1382.0,52.77
1384.0,52.73
1386.0,52.68
1388.0,52.58
1390.0,52.45
1392.0,52.27
1394.0,52.135
1396.0,52.02
1398.0,51.87
1400.0,51.73
1402.0,51.595
1404.0,51.5
1406.0,51.43
1408.0,51.39
1410.0,51.41
1412.0,51.5
1414.0,51.63
1416.0,51.82
1418.0,52.05
1420.0,52.28
1422.0,52.49
1424.0,52.65
1426.0,52.78
1428.0,52.95
1430.0,53.09
1432.0,53.24
1434.0,53.37
1436.0,53.5
1438.0,53.6
1440.0,53.65
1442.0,53.73
1444.0,53.81
1446.0,53.895
1448.0,53.99
1450.0,54.03
1452.0,54.07
1454.0,54.145
1456.0,54.21
1458.0,54.29
1460.0,54.37
1462.0,54.43
1464.0,54.505
1466.0,54.575
1468.0,54.65
1470.0,54.685
1472.0,54.71
1474.0,54.77
1476.0,54.86
1478.0,54.935
1480.0,55.02
1482.0,55.08
1484.0,55.18
1486.0,55.31
1488.0,55.41
1490.0,55.46
1492.0,55.51
1494.0,55.57
1496.0,55.69
1498.0,55.79
1500.0,55.88
1502.0,55.99
1504.0,56.07
1506.0,56.14
1508.0,56.22
1510.0,56.28
1512.0,56.36
1514.0,56.42
1516.0,56.48
1518.0,56.515
1520.0,56.58
1522.0,56.64
1524.0,56.695
1526.0,56.79
1528.0,56.87
1530.0,56.95
1532.0,57.03
1534.0,57.07
1536.0,57.12
1538.0,57.17
1540.0,57.23
1542.0,57.32
1544.0,57.44
1546.0,57.51
1548.0,57.59
1550.0,57.61
1552.0,57.62
1554.0,57.63
1556.0,57.665
1558.0,57.74
1560.0,57.81
1562.0,57.9
1564.0,57.96
1566.0,58.04
1568.0,58.09
1570.0,58.11
1572.0,58.13
1574.0,58.205
1576.0,58.3
1578.0,58.385
1580.0,58.42
1582.0,58.43
1584.0,58.455
1586.0,58.53
1588.0,58.59
1590.0,58.62
1592.0,58.67
1594.0,58.7
1596.0,58.8
1598.0,58.84
1600.0,58.84
1602.0,58.84
1604.0,58.87
1606.0,58.94
1608.0,58.995
1610.0,58.99
1612.0,59.01
1614.0,59.04
1616.0,59.1
1618.0,59.15
1620.0,59.15
1622.0,59.21
1624.0,59.26
1626.0,59.3
1628.0,59.29
1630.0,59.26
1632.0,59.27
1634.0,59.31
1636.0,59.355
1638.0,59.39
1640.0,59.37
1642.0,59.38
1644.0,59.42
1646.0,59.44
1648.0,59.425
1650.0,59.41
1652.0,59.425
1654.0,59.46
1656.0,59.47
1658.0,59.48
1660.0,59.5
1662.0,59.52
1664.0,59.51
1666.0,59.45
1668.0,59.425
1670.0,59.44
1672.0,59.45
1674.0,59.45
1676.0,59.42
1678.0,59.42
1680.0,59.5
1682.0,59.54
1684.0,59.55
1686.0,59.55
1688.0,59.53
1690.0,59.56
1692.0,59.58
1694.0,59.58
1696.0,59.67
1698.0,59.75
1700.0,59.78
1702.0,59.77
1704.0,59.73
1706.0,59.75
1708.0,59.78
1710.0,59.785
1712.0,59.785
1714.0,59.77
1716.0,59.74
1718.0,59.74
1720.0,59.73
1722.0,59.73
1724.0,59.75
1726.0,59.77
1728.0,59.82
1730.0,59.855
1732.0,59.84
1734.0,59.855
1736.0,59.84
1738.0,59.83
1740.0,59.855
1742.0,59.88
1744.0,59.9
1746.0,59.87
1748.0,59.85
1750.0,59.85
1752.0,59.9
1754.0,59.94
1756.0,59.99
1758.0,59.99
1760.0,59.98
1762.0,59.99
1764.0,60.0
1766.0,60.0
1768.0,60.05
1770.0,60.08
1772.0,60.1
1774.0,60.09
1776.0,60.08
1778.0,60.08
1780.0,60.06
1782.0,60.07
1784.0,60.08
1786.0,60.08
1788.0,60.1
1790.0,60.12
1792.0,60.11
1794.0,60.11
1796.0,60.13
1798.0,60.12
1800.0,60.1
1802.0,60.11
1804.0,60.12
1806.0,60.16
1808.0,60.18
1810.0,60.145
1812.0,60.14
1814.0,60.16
1816.0,60.23
1818.0,60.24
1820.0,60.23
1822.0,60.19
1824.0,60.13
1826.0,60.12
1828.0,60.11
1830.0,60.11
1832.0,60.14
1834.0,60.145
1836.0,60.12
1838.0,60.11
1840.0,60.11
1842.0,60.08
1844.0,60.08
1846.0,60.12
1848.0,60.11
1850.0,60.13
1852.0,60.14
1854.0,60.13
1856.0,60.14
1858.0,60.13
1860.0,60.11
1862.0,60.08
1864.0,60.03
1866.0,59.965
1868.0,59.95
1870.0,59.94
1872.0,59.9
1874.0,59.82
1876.0,59.72
1878.0,59.605
1880.0,59.45
1882.0,59.3
1884.0,59.12
1886.0,58.93
1888.0,58.73
1890.0,58.455
1892.0,58.15
1894.0,57.81
1896.0,57.47
1898.0,57.11
1900.0,56.74
1902.0,56.41
1904.0,56.14
1906.0,55.96
1908.0,55.835
1910.0,55.76
1912.0,55.71
1914.0,55.75
1916.0,55.81
1918.0,55.93
1920.0,56.02
1922.0,56.08
1924.0,56.17
1926.0,56.32
1928.0,56.5
1930.0,56.61
1932.0,56.66
1934.0,56.695
1936.0,56.77
1938.0,56.875
1940.0,56.95
1942.0,57.0
1944.0,57.09
1946.0,57.14
1948.0,57.22
1950.0,57.28
1952.0,57.305
1954.0,57.39
1956.0,57.415
1958.0,57.46
1960.0,57.53
1962.0,57.58
1964.0,57.66
1966.0,57.73
1968.0,57.78
1970.0,57.82
1972.0,57.845
1974.0,57.88
1976.0,57.92
1978.0,58.0
1980.0,58.06
1982.0,58.12
1984.0,58.18
1986.0,58.22
1988.0,58.25
1990.0,58.29
1992.0,58.34
1994.0,58.42
1996.0,58.51
1998.0,58.58
2000.0,58.69
2002.0,58.77
2004.0,58.83
2006.0,58.86
2008.0,58.88
2010.0,58.94
2012.0,59.02
2014.0,59.12
2016.0,59.17
2018.0,59.22
2020.0,59.27
2022.0,59.29
2024.0,59.32
2026.0,59.39
2028.0,59.45
2030.0,59.53
2032.0,59.55
2034.0,59.57
2036.0,59.6
2038.0,59.63
2040.0,59.69
2042.0,59.71
2044.0,59.77
2046.0,59.81
2048.0,59.83
2050.0,59.855
2052.0,59.9
2054.0,59.95
2056.0,59.98
2058.0,59.99
2060.0,60.03
2062.0,60.08
2064.0,60.08
2066.0,60.03
2068.0,60.03
2070.0,60.05
2072.0,60.07
2074.0,60.11
2076.0,60.1
2078.0,60.1
2080.0,60.09
2082.0,60.07
2084.0,60.09
2086.0,60.09
2088.0,60.06
2090.0,60.03
2092.0,59.98
2094.0,59.96
2096.0,59.965
2098.0,59.96
2100.0,59.965
2102.0,59.95
2104.0,59.89
2106.0,59.88
2108.0,59.82
2110.0,59.84
2112.0,59.84
2114.0,59.84
2116.0,59.87
2118.0,59.83
2120.0,59.81
2122.0,59.81
2124.0,59.8
2126.0,59.78
2128.0,59.785
2130.0,59.81
2132.0,59.84
2134.0,59.85
2136.0,59.8
2138.0,59.785
2140.0,59.785
2142.0,59.785
2144.0,59.81
2146.0,59.71
2148.0,59.67
2150.0,59.605
2152.0,59.57
2154.0,59.53
2156.0,59.425
2158.0,59.34
2160.0,59.24
2162.0,59.13
2164.0,59.04
2166.0,58.92
2168.0,58.85
2170.0,58.74
2172.0,58.59
2174.0,58.4
2176.0,58.19
2178.0,57.98
2180.0,57.76
2182.0,57.52
2184.0,57.25
2186.0,57.0
2188.0,56.67
2190.0,56.35
2192.0,56.06
2194.0,55.78
2196.0,55.54
2198.0,55.295
2200.0,55.16
2202.0,55.1
2204.0,55.08
2206.0,55.07
2208.0,55.115
2210.0,55.24
2212.0,55.4
2214.0,55.61
2216.0,55.83
2218.0,56.04
2220.0,56.23
2222.0,56.42
2224.0,56.625
2226.0,56.82
2228.0,56.92
2230.0,56.99
2232.0,57.055
2234.0,57.13
2236.0,57.19
2238.0,57.22
2240.0,57.23
2242.0,57.27
2244.0,57.26
2246.0,57.29
2248.0,57.29
2250.0,57.28
2252.0,57.235
2254.0,57.17
2256.0,57.23
2258.0,57.305
2260.0,57.36
2262.0,57.415
2264.0,57.46
2266.0,57.53
2268.0,57.57
2270.0,57.52
2272.0,57.55
2274.0,57.58
2276.0,57.61
2278.0,57.595
2280.0,57.59
2282.0,57.55
2284.0,57.5
2286.0,57.46
2288.0,57.47
2290.0,57.43
2292.0,57.34
2294.0,57.26
2296.0,57.2
2298.0,57.15
2300.0,57.09
2302.0,57.055
2304.0,57.0
2306.0,56.91
2308.0,56.83
2310.0,56.695
2312.0,56.59
2314.0,56.48
2316.0,56.36
2318.0,56.24
2320.0,56.15
2322.0,56.06
2324.0,55.99
2326.0,55.94
2328.0,55.9
2330.0,55.79
2332.0,55.64
2334.0,55.49
2336.0,55.39
2338.0,55.295
2340.0,55.21
2342.0,55.13
2344.0,55.1
2346.0,55.02
2348.0,55.01
2350.0,54.96
2352.0,55.07
2354.0,55.1
2356.0,55.115
2358.0,55.11
2360.0,55.11
2362.0,55.19
2364.0,55.16
2366.0,55.15
2368.0,55.2
2370.0,55.26
2372.0,55.28
2374.0,55.21
2376.0,55.11
2378.0,55.02
2380.0,55.08
2382.0,55.08
2384.0,55.09
2386.0,55.05
2388.0,55.01
2390.0,54.96
2392.0,54.89
2394.0,54.79
2396.0,54.73
2398.0,54.74
2400.0,54.71
2402.0,54.66
2404.0,54.47
2406.0,54.43
2408.0,54.34
2410.0,54.25
2412.0,54.04
2414.0,53.89
2416.0,53.77
2418.0,53.71
2420.0,53.605
2422.0,53.535
2424.0,53.31
2426.0,53.08
2428.0,52.84
2430.0,52.73
2432.0,52.54
2434.0,52.385
2436.0,52.26
2438.0,52.15
2440.0,52.1
2442.0,52.01
2444.0,51.93
2446.0,51.86
2448.0,51.83
2450.0,51.81
2452.0,51.775
2454.0,51.73
2456.0,51.7
2458.0,51.63
2460.0,51.57
2462.0,51.55
2464.0,51.57
2466.0,51.55
2468.0,51.49
2470.0,51.46
2472.0,51.39
2474.0,51.345
2476.0,51.26
2478.0,51.235
2480.0,51.16
2482.0,51.1
2484.0,51.055
2486.0,51.055
2488.0,51.03
2490.0,50.96
2492.0,50.83
2494.0,50.79
2496.0,50.74
2498.0,50.625
2500.0,50.51
