wavelength,reflectivity
1300.0,56.77
1302.0,56.75
1304.0,56.77
1306.0,56.84
1308.0,56.57
1310.0,56.46
1312.0,56.56
1314.0,56.69
1316.0,56.66
1318.0,56.67
1320.0,56.33
1322.0,56.265
1324.0,56.39
1326.0,56.59
1328.0,56.66
1330.0,56.72
1332.0,56.695
1334.0,56.69
1336.0,56.71
1338.0,56.72
1340.0,56.66
1342.0,56.68
1344.0,56.72
1346.0,56.75
1348.0,56.77
1350.0,56.76
1352.0,56.75
1354.0,56.76
1356.0,56.81
1358.0,56.86
1360.0,56.875
1362.0,56.875
1364.0,56.87
1366.0,56.84
1368.0,56.85
1370.0,56.89
1372.0,56.89
1374.0,56.86
1376.0,56.79
1378.0,56.68
1380.0,56.62
1382.0,56.54
1384.0,56.46
1386.0,56.35
1388.0,56.17
1390.0,55.95
1392.0,55.71
1394.0,55.44
1396.0,55.17
1398.0,54.88
1400.0,54.55
1402.0,54.22
1404.0,53.92
1406.0,53.62
1408.0,53.355
1410.0,53.14
1412.0,53.02
1414.0,52.99
1416.0,53.05
1418.0,53.16
1420.0,53.37
1422.0,53.67
1424.0,54.06
1426.0,54.45
1428.0,54.82
1430.0,55.15
1432.0,55.44
1434.0,55.69
1436.0,55.905
1438.0,56.085
1440.0,56.265
1442.0,56.44
1444.0,56.58
1446.0,56.69
1448.0,56.8
1450.0,56.91
1452.0,57.0
1454.0,57.055
1456.0,57.1
1458.0,57.12
1460.0,57.19
1462.0,57.305
1464.0,57.43
1466.0,57.55
1468.0,57.595
1470.0,57.63
1472.0,57.65
1474.0,57.7
1476.0,57.77
1478.0,57.84
1480.0,57.93
1482.0,58.02
1484.0,58.095
1486.0,58.17
1488.0,58.23
1490.0,58.3
1492.0,58.385
1494.0,58.5
1496.0,58.56
1498.0,58.63
1500.0,58.67
1502.0,58.74
1504.0,58.83
1506.0,58.93
1508.0,59.01
1510.0,59.09
1512.0,59.17
1514.0,59.24
1516.0,59.3
1518.0,59.37
1520.0,59.44
1522.0,59.51
1524.0,59.59
1526.0,59.62
1528.0,59.67
1530.0,59.77
1532.0,59.8
1534.0,59.85
1536.0,59.855
1538.0,59.9
1540.0,59.965
1542.0,60.08
1544.0,60.16
1546.0,60.21
1548.0,60.24
1550.0,60.26
1552.0,60.3
1554.0,60.36
1556.0,60.41
1558.0,60.44
1560.0,60.46
1562.0,60.52
1564.0,60.575
1566.0,60.66
1568.0,60.71
1570.0,60.75
1572.0,60.79
1574.0,60.85
1576.0,60.92
1578.0,60.97
1580.0,61.03
1582.0,61.08
1584.0,61.11
1586.0,61.13
1588.0,61.15
1590.0,61.18
1592.0,61.23
1594.0,61.31
1596.0,61.36
1598.0,61.365
1600.0,61.36
1602.0,61.39
1604.0,61.46
1606.0,61.54
1608.0,61.57
1610.0,61.545
1612.0,61.56
1614.0,61.6
1616.0,61.7
1618.0,61.76
1620.0,61.81
1622.0,61.81
1624.0,61.83
1626.0,61.85
1628.0,61.86
1630.0,61.89
1632.0,61.9
1634.0,61.92
1636.0,61.92
1638.0,61.92
1640.0,61.975
1642.0,62.02
1644.0,62.06
1646.0,62.07
1648.0,62.07
1650.0,62.085
1652.0,62.12
1654.0,62.15
1656.0,62.15
1658.0,62.14
1660.0,62.11
1662.0,62.12
1664.0,62.155
1666.0,62.155
1668.0,62.155
1670.0,62.15
1672.0,62.14
1674.0,62.155
1676.0,62.21
1678.0,62.23
1680.0,62.26
1682.0,62.27
1684.0,62.29
1686.0,62.37
1688.0,62.42
1690.0,62.44
1692.0,62.43
1694.0,62.46
1696.0,62.48
1698.0,62.5
1700.0,62.515
1702.0,62.515
1704.0,62.56
1706.0,62.57
1708.0,62.585
1710.0,62.585
1712.0,62.585
1714.0,62.61
1716.0,62.63
1718.0,62.66
1720.0,62.67
1722.0,62.66
1724.0,62.63
1726.0,62.64
1728.0,62.67
1730.0,62.695
1732.0,62.69
1734.0,62.68
1736.0,62.72
1738.0,62.79
1740.0,62.85
1742.0,62.86
1744.0,62.87
1746.0,62.84
1748.0,62.85
1750.0,62.85
1752.0,62.87
1754.0,62.91
1756.0,62.94
1758.0,62.945
1760.0,62.94
1762.0,62.9
1764.0,62.89
1766.0,62.91
1768.0,62.93
1770.0,62.97
1772.0,62.96
1774.0,62.93
1776.0,62.93
1778.0,62.91
1780.0,62.96
1782.0,62.945
1784.0,62.96
1786.0,62.97
1788.0,62.98
1790.0,63.01
1792.0,63.03
1794.0,63.03
1796.0,63.03
1798.0,63.03
1800.0,63.03
1802.0,63.04
1804.0,63.04
1806.0,63.06
1808.0,63.06
1810.0,63.07
1812.0,63.08
1814.0,63.07
1816.0,63.06
1818.0,63.06
1820.0,63.05
1822.0,63.05
1824.0,63.08
1826.0,63.06
1828.0,63.03
1830.0,63.0
1832.0,62.94
1834.0,62.92
1836.0,62.93
1838.0,62.9
1840.0,62.9
1842.0,62.85
1844.0,62.81
1846.0,62.79
1848.0,62.765
1850.0,62.73
1852.0,62.67
1854.0,62.6
1856.0,62.51
1858.0,62.4
1860.0,62.32
1862.0,62.21
1864.0,62.02
1866.0,61.725
1868.0,61.39
1870.0,61.07
1872.0,60.71
1874.0,60.325
1876.0,59.93
1878.0,59.49
1880.0,59.08
1882.0,58.66
1884.0,58.22
1886.0,57.73
1888.0,57.14
1890.0,56.515
1892.0,55.835
1894.0,55.15
1896.0,54.44
1898.0,53.715
1900.0,53.02
1902.0,52.41
1904.0,51.97
1906.0,51.69
1908.0,51.55
1910.0,51.52
1912.0,51.595
1914.0,51.74
1916.0,51.955
1918.0,52.16
1920.0,52.38
1922.0,52.6
1924.0,52.86
1926.0,53.13
1928.0,53.31
1930.0,53.49
1932.0,53.605
1934.0,53.75
1936.0,53.91
1938.0,54.075
1940.0,54.3
1942.0,54.43
1944.0,54.52
1946.0,54.61
1948.0,54.72
1950.0,54.84
1952.0,54.92
1954.0,55.01
1956.0,55.115
1958.0,55.24
1960.0,55.4
1962.0,55.51
1964.0,55.6
1966.0,55.64
1968.0,55.71
1970.0,55.835
1972.0,55.99
1974.0,56.15
1976.0,56.26
1978.0,56.35
1980.0,56.48
1982.0,56.62
1984.0,56.8
1986.0,56.92
1988.0,57.0
1990.0,57.11
1992.0,57.21
1994.0,57.35
1996.0,57.48
1998.0,57.62
2000.0,57.76
2002.0,57.91
2004.0,58.04
2006.0,58.18
2008.0,58.3
2010.0,58.38
2012.0,58.51
2014.0,58.65
2016.0,58.815
2018.0,58.95
2020.0,59.06
2022.0,59.14
2024.0,59.21
2026.0,59.31
2028.0,59.425
2030.0,59.54
2032.0,59.605
2034.0,59.65
2036.0,59.74
2038.0,59.855
2040.0,59.98
2042.0,60.06
2044.0,60.12
2046.0,60.16
2048.0,60.17
2050.0,60.215
2052.0,60.26
2054.0,60.35
2056.0,60.44
2058.0,60.46
2060.0,60.45
2062.0,60.49
2064.0,60.56
2066.0,60.61
2068.0,60.61
2070.0,60.62
2072.0,60.65
2074.0,60.65
2076.0,60.65
2078.0,60.63
2080.0,60.67
2082.0,60.64
2084.0,60.61
2086.0,60.61
2088.0,60.63
2090.0,60.61
2092.0,60.57
2094.0,60.54
2096.0,60.51
2098.0,60.47
2100.0,60.39
2102.0,60.36
2104.0,60.37
2106.0,60.42
2108.0,60.41
2110.0,60.39
2112.0,60.36
2114.0,60.36
2116.0,60.41
2118.0,60.37
2120.0,60.31
2122.0,60.27
2124.0,60.27
2126.0,60.25
2128.0,60.21
2130.0,60.2
2132.0,60.21
2134.0,60.23
2136.0,60.21
2138.0,60.17
2140.0,60.145
2142.0,60.17
2144.0,60.19
2146.0,60.16
2148.0,60.1
2150.0,60.07
2152.0,60.05
2154.0,59.965
2156.0,59.91
2158.0,59.88
2160.0,59.8
2162.0,59.74
2164.0,59.605
2166.0,59.5
2168.0,59.37
2170.0,59.16
2172.0,58.96
2174.0,58.79
2176.0,58.62
2178.0,58.4
2180.0,58.16
2182.0,57.845
2184.0,57.56
2186.0,57.235
2188.0,56.92
2190.0,56.59
2192.0,56.2
2194.0,55.78
2196.0,55.32
2198.0,54.865
2200.0,54.37
2202.0,53.88
2204.0,53.41
2206.0,52.95
2208.0,52.53
2210.0,52.135
2212.0,51.79
2214.0,51.5
2216.0,51.25
2218.0,51.03
2220.0,50.9
2222.0,50.84
2224.0,50.82
2226.0,50.805
2228.0,50.9
2230.0,51.1
2232.0,51.4
2234.0,51.71
2236.0,52.025
2238.0,52.31
2240.0,52.48
2242.0,52.65
2244.0,52.81
2246.0,52.99
2248.0,53.09
2250.0,53.17
2252.0,53.3
2254.0,53.49
2256.0,53.81
2258.0,54.26
2260.0,54.9
2262.0,55.36
2264.0,55.74
2266.0,55.98
2268.0,56.24
2270.0,56.33
2272.0,56.38
2274.0,56.515
2276.0,56.695
2278.0,56.82
2280.0,56.83
2282.0,56.77
2284.0,56.76
2286.0,56.74
2288.0,56.62
2290.0,56.515
2292.0,56.42
2294.0,56.28
2296.0,56.085
2298.0,55.835
2300.0,55.62
2302.0,55.36
2304.0,55.11
2306.0,54.85
2308.0,54.59
2310.0,54.29
2312.0,53.94
2314.0,53.56
2316.0,53.23
2318.0,52.96
2320.0,52.69
2322.0,52.43
2324.0,52.16
2326.0,51.95
2328.0,51.74
2330.0,51.49
2332.0,51.27
2334.0,51.08
2336.0,50.89
2338.0,50.71
2340.0,50.55
2342.0,50.49
2344.0,50.43
2346.0,50.42
2348.0,50.445
2350.0,50.53
2352.0,50.67
2354.0,50.79
2356.0,50.87
2358.0,50.92
2360.0,51.01
2362.0,51.08
2364.0,51.14
2366.0,51.22
2368.0,51.27
2370.0,51.32
2372.0,51.41
2374.0,51.4
2376.0,51.33
2378.0,51.235
2380.0,51.235
2382.0,51.29
2384.0,51.235
2386.0,51.2
2388.0,51.15
2390.0,51.13
2392.0,51.09
2394.0,50.985
2396.0,50.94
2398.0,50.805
2400.0,50.71
2402.0,50.5
2404.0,50.25
2406.0,50.085
2408.0,50.04
2410.0,50.04
2412.0,49.95
2414.0,49.73
2416.0,49.44
2418.0,49.23
2420.0,49.01
2422.0,48.76
2424.0,48.53
2426.0,48.39
2428.0,48.18
2430.0,47.91
2432.0,47.59
2434.0,47.48
2436.0,47.24
2438.0,47.02
2440.0,46.85
2442.0,46.8
2444.0,46.62
2446.0,46.45
2448.0,46.41
2450.0,46.42
2452.0,46.41
2454.0,46.34
2456.0,46.31
2458.0,46.26
2460.0,46.2
2462.0,46.07
2464.0,46.03
2466.0,45.99
2468.0,45.98
2470.0,45.89
2472.0,45.82
2474.0,45.73
2476.0,45.63
2478.0,45.63
2480.0,45.51
2482.0,45.46
2484.0,45.29
2486.0,45.26
2488.0,45.21
2490.0,45.23
2492.0,45.15
2494.0,45.09
2496.0,45.01
2498.0,44.94
2500.0,44.84
