wavelength,reflectivity
1300.0,55.34
1302.0,55.04
1304.0,54.86
1306.0,54.935
1308.0,55.17
1310.0,55.26
1312.0,55.27
1314.0,55.28
1316.0,55.23
1318.0,55.31
1320.0,55.32
1322.0,55.2
1324.0,55.19
1326.0,55.24
1328.0,55.15
1330.0,55.01
1332.0,54.99
1334.0,55.03
1336.0,55.06
1338.0,55.1
1340.0,55.11
1342.0,54.98
1344.0,55.0
1346.0,55.01
1348.0,55.0
1350.0,55.02
1352.0,55.02
1354.0,55.0
1356.0,55.02
1358.0,55.06
1360.0,55.06
1362.0,55.03
1364.0,54.98
1366.0,54.93
1368.0,54.9
1370.0,54.9
1372.0,54.92
1374.0,54.91
1376.0,54.9
1378.0,54.88
1380.0,54.82
1382.0,54.755
1384.0,54.68
1386.0,54.53
1388.0,54.35
1390.0,54.1
1392.0,53.81
1394.0,53.5
1396.0,53.21
1398.0,52.94
1400.0,52.69
1402.0,52.49
1404.0,52.27
1406.0,52.1
1408.0,51.97
1410.0,51.93
1412.0,51.98
1414.0,52.08
1416.0,52.23
1418.0,52.43
1420.0,52.63
1422.0,52.81
1424.0,52.96
1426.0,53.06
1428.0,53.1
1430.0,53.16
1432.0,53.21
1434.0,53.27
1436.0,53.29
1438.0,53.29
1440.0,53.28
1442.0,53.31
1444.0,53.32
1446.0,53.37
1448.0,53.4
1450.0,53.44
1452.0,53.48
1454.0,53.52
1456.0,53.56
1458.0,53.605
1460.0,53.65
1462.0,53.68
1464.0,53.66
1466.0,53.64
1468.0,53.65
1470.0,53.7
1472.0,53.82
1474.0,53.895
1476.0,53.92
1478.0,53.93
1480.0,53.95
1482.0,53.98
1484.0,54.02
1486.0,54.1
1488.0,54.22
1490.0,54.36
1492.0,54.48
1494.0,54.55
1496.0,54.6
1498.0,54.65
1500.0,54.71
1502.0,54.77
1504.0,54.85
1506.0,54.935
1508.0,55.04
1510.0,55.14
1512.0,55.19
1514.0,55.23
1516.0,55.29
1518.0,55.34
1520.0,55.38
1522.0,55.42
1524.0,55.46
1526.0,55.53
1528.0,55.59
1530.0,55.63
1532.0,55.65
1534.0,55.67
1536.0,55.69
1538.0,55.72
1540.0,55.74
1542.0,55.79
1544.0,55.86
1546.0,55.92
1548.0,55.94
1550.0,55.97
1552.0,55.97
1554.0,55.96
1556.0,55.96
1558.0,55.96
1560.0,56.0
1562.0,56.06
1564.0,56.12
1566.0,56.16
1568.0,56.17
1570.0,56.18
1572.0,56.21
1574.0,56.25
1576.0,56.26
1578.0,56.265
1580.0,56.28
1582.0,56.32
1584.0,56.37
1586.0,56.42
1588.0,56.445
1590.0,56.47
1592.0,56.47
1594.0,56.48
1596.0,56.5
1598.0,56.51
1600.0,56.55
1602.0,56.6
1604.0,56.66
1606.0,56.67
1608.0,56.68
1610.0,56.66
1612.0,56.64
1614.0,56.66
1616.0,56.67
1618.0,56.69
1620.0,56.73
1622.0,56.71
1624.0,56.73
1626.0,56.78
1628.0,56.79
1630.0,56.79
1632.0,56.74
1634.0,56.69
1636.0,56.66
1638.0,56.67
1640.0,56.68
1642.0,56.71
1644.0,56.75
1646.0,56.79
1648.0,56.77
1650.0,56.72
1652.0,56.72
1654.0,56.75
1656.0,56.76
1658.0,56.75
1660.0,56.72
1662.0,56.71
1664.0,56.695
1666.0,56.68
1668.0,56.67
1670.0,56.64
1672.0,56.625
1674.0,56.625
1676.0,56.64
1678.0,56.69
1680.0,56.695
1682.0,56.67
1684.0,56.67
1686.0,56.69
1688.0,56.68
1690.0,56.71
1692.0,56.695
1694.0,56.72
1696.0,56.77
1698.0,56.78
1700.0,56.8
1702.0,56.83
1704.0,56.84
1706.0,56.85
1708.0,56.82
1710.0,56.78
1712.0,56.77
1714.0,56.77
1716.0,56.77
1718.0,56.77
1720.0,56.8
1722.0,56.8
1724.0,56.79
1726.0,56.8
1728.0,56.83
1730.0,56.86
1732.0,56.86
1734.0,56.81
1736.0,56.78
1738.0,56.79
1740.0,56.79
1742.0,56.78
1744.0,56.77
1746.0,56.79
1748.0,56.83
1750.0,56.81
1752.0,56.8
1754.0,56.74
1756.0,56.75
1758.0,56.79
1760.0,56.8
1762.0,56.8
1764.0,56.78
1766.0,56.75
1768.0,56.76
1770.0,56.76
1772.0,56.74
1774.0,56.75
1776.0,56.74
1778.0,56.74
1780.0,56.71
1782.0,56.68
1784.0,56.68
1786.0,56.68
1788.0,56.67
1790.0,56.66
1792.0,56.625
1794.0,56.61
1796.0,56.61
1798.0,56.58
1800.0,56.6
1802.0,56.61
1804.0,56.64
1806.0,56.65
1808.0,56.64
1810.0,56.64
1812.0,56.65
1814.0,56.64
1816.0,56.59
1818.0,56.51
1820.0,56.47
1822.0,56.46
1824.0,56.48
1826.0,56.51
1828.0,56.515
1830.0,56.5
1832.0,56.49
1834.0,56.48
1836.0,56.5
1838.0,56.515
1840.0,56.49
1842.0,56.44
1844.0,56.42
1846.0,56.42
1848.0,56.37
1850.0,56.31
1852.0,56.26
1854.0,56.23
1856.0,56.21
1858.0,56.2
1860.0,56.14
1862.0,56.05
1864.0,55.93
1866.0,55.78
1868.0,55.655
1870.0,55.54
1872.0,55.43
1874.0,55.28
1876.0,55.04
1878.0,54.74
1880.0,54.45
1882.0,54.13
1884.0,53.81
1886.0,53.44
1888.0,53.05
1890.0,52.61
1892.0,52.18
1894.0,51.69
1896.0,51.18
1898.0,50.69
1900.0,50.26
1902.0,49.85
1904.0,49.44
1906.0,49.04
1908.0,48.67
1910.0,48.39
1912.0,48.16
1914.0,47.97
1916.0,47.84
1918.0,47.7
1920.0,47.6
1922.0,47.51
1924.0,47.44
1926.0,47.38
1928.0,47.35
1930.0,47.31
1932.0,47.25
1934.0,47.22
1936.0,47.23
1938.0,47.28
1940.0,47.28
1942.0,47.3
1944.0,47.3
1946.0,47.36
1948.0,47.46
1950.0,47.51
1952.0,47.58
1954.0,47.64
1956.0,47.69
1958.0,47.77
1960.0,47.83
1962.0,47.91
1964.0,48.0
1966.0,48.1
1968.0,48.21
1970.0,48.32
1972.0,48.43
1974.0,48.56
1976.0,48.71
1978.0,48.88
1980.0,49.01
1982.0,49.13
1984.0,49.25
1986.0,49.36
1988.0,49.5
1990.0,49.65
1992.0,49.85
1994.0,50.03
1996.0,50.19
1998.0,50.32
2000.0,50.46
2002.0,50.66
2004.0,50.84
2006.0,51.02
2008.0,51.18
2010.0,51.32
2012.0,51.47
2014.0,51.58
2016.0,51.72
2018.0,51.86
2020.0,51.99
2022.0,52.11
2024.0,52.23
2026.0,52.4
2028.0,52.52
2030.0,52.61
2032.0,52.7
2034.0,52.815
2036.0,52.925
2038.0,53.03
2040.0,53.12
2042.0,53.23
2044.0,53.33
2046.0,53.38
2048.0,53.43
2050.0,53.47
2052.0,53.56
2054.0,53.63
2056.0,53.67
2058.0,53.74
2060.0,53.8
2062.0,53.87
2064.0,53.91
2066.0,53.95
2068.0,54.03
2070.0,54.09
2072.0,54.1
2074.0,54.13
2076.0,54.17
2078.0,54.22
2080.0,54.28
2082.0,54.29
2084.0,54.3
2086.0,54.31
2088.0,54.29
2090.0,54.28
2092.0,54.29
2094.0,54.32
2096.0,54.38
2098.0,54.34
2100.0,54.25
2102.0,54.21
2104.0,54.24
2106.0,54.32
2108.0,54.35
2110.0,54.32
2112.0,54.32
2114.0,54.325
2116.0,54.35
2118.0,54.36
2120.0,54.41
2122.0,54.43
2124.0,54.42
2126.0,54.44
2128.0,54.43
2130.0,54.41
2132.0,54.39
2134.0,54.34
2136.0,54.36
2138.0,54.34
2140.0,54.3
2142.0,54.3
2144.0,54.28
2146.0,54.27
2148.0,54.24
2150.0,54.23
2152.0,54.22
2154.0,54.145
2156.0,54.07
2158.0,54.02
2160.0,53.98
2162.0,53.95
2164.0,53.89
2166.0,53.81
2168.0,53.715
2170.0,53.605
2172.0,53.49
2174.0,53.31
2176.0,53.08
2178.0,52.84
2180.0,52.61
2182.0,52.315
2184.0,51.97
2186.0,51.64
2188.0,51.31
2190.0,50.98
2192.0,50.67
2194.0,50.35
2196.0,50.1
2198.0,49.89
2200.0,49.78
2202.0,49.79
2204.0,49.86
2206.0,49.99
2208.0,50.17
2210.0,50.41
2212.0,50.65
2214.0,50.92
2216.0,51.18
2218.0,51.45
2220.0,51.64
2222.0,51.775
2224.0,51.88
2226.0,52.0
2228.0,52.1
2230.0,52.135
2232.0,52.13
2234.0,52.11
2236.0,52.135
2238.0,52.18
2240.0,52.16
2242.0,52.12
2244.0,52.1
2246.0,52.04
2248.0,51.955
2250.0,51.88
2252.0,51.775
2254.0,51.7
2256.0,51.59
2258.0,51.53
2260.0,51.52
2262.0,51.52
2264.0,51.64
2266.0,51.72
2268.0,51.77
2270.0,51.76
2272.0,51.8
2274.0,51.84
2276.0,51.8
2278.0,51.79
2280.0,51.79
2282.0,51.75
2284.0,51.68
2286.0,51.65
2288.0,51.58
2290.0,51.46
2292.0,51.31
2294.0,51.2
2296.0,51.18
2298.0,51.1
2300.0,50.985
2302.0,50.89
2304.0,50.79
2306.0,50.72
2308.0,50.61
2310.0,50.49
2312.0,50.34
2314.0,50.16
2316.0,49.91
2318.0,49.66
2320.0,49.41
2322.0,49.2
2324.0,49.02
2326.0,48.86
2328.0,48.63
2330.0,48.39
2332.0,48.2
2334.0,48.04
2336.0,47.92
2338.0,47.77
2340.0,47.61
2342.0,47.44
2344.0,47.3
2346.0,47.13
2348.0,46.93
2350.0,46.74
2352.0,46.63
2354.0,46.59
2356.0,46.57
2358.0,46.51
2360.0,46.4
2362.0,46.43
2364.0,46.62
2366.0,46.84
2368.0,47.02
2370.0,47.26
2372.0,47.47
2374.0,47.66
2376.0,47.79
2378.0,47.89
2380.0,47.89
2382.0,47.94
2384.0,47.95
2386.0,47.99
2388.0,47.88
2390.0,47.85
2392.0,47.79
2394.0,47.8
2396.0,47.83
2398.0,47.87
2400.0,47.8
2402.0,47.7
2404.0,47.59
2406.0,47.48
2408.0,47.37
2410.0,47.3
2412.0,47.17
2414.0,46.98
2416.0,46.8
2418.0,46.73
2420.0,46.64
2422.0,46.5
2424.0,46.26
2426.0,46.03
2428.0,45.86
2430.0,45.75
2432.0,45.64
2434.0,45.48
2436.0,45.37
2438.0,45.27
2440.0,45.14
2442.0,45.0
2444.0,44.81
2446.0,44.77
2448.0,44.72
2450.0,44.66
2452.0,44.61
2454.0,44.57
2456.0,44.57
2458.0,44.49
2460.0,44.47
2462.0,44.26
2464.0,44.1
2466.0,43.89
2468.0,43.78
2470.0,43.64
2472.0,43.65
2474.0,43.69
2476.0,43.67
2478.0,43.59
2480.0,43.55
2482.0,43.54
2484.0,43.51
2486.0,43.45
2488.0,43.37
2490.0,43.29
2492.0,43.19
2494.0,43.03
2496.0,43.07
2498.0,43.11
2500.0,43.01
