wavelength,reflectivity
1300.0,54.26
1302.0,54.18
1304.0,54.24
1306.0,54.32
1308.0,54.45
1310.0,54.62
1312.0,54.78
1314.0,54.93
1316.0,54.865
1318.0,54.77
1320.0,54.78
1322.0,54.88
1324.0,55.05
1326.0,55.26
1328.0,55.32
1330.0,55.38
1332.0,55.44
1334.0,55.475
1336.0,55.56
1338.0,55.63
1340.0,55.655
1342.0,55.725
1344.0,55.78
1346.0,55.85
1348.0,55.95
1350.0,55.96
1352.0,55.98
1354.0,56.08
1356.0,56.13
1358.0,56.2
1360.0,56.265
1362.0,56.31
1364.0,56.37
1366.0,56.46
1368.0,56.53
1370.0,56.6
1372.0,56.64
1374.0,56.66
1376.0,56.67
1378.0,56.69
1380.0,56.73
1382.0,56.79
1384.0,56.85
1386.0,56.91
1388.0,56.93
1390.0,56.92
1392.0,56.92
1394.0,56.89
1396.0,56.87
1398.0,56.83
1400.0,56.79
1402.0,56.77
1404.0,56.76
1406.0,56.74
1408.0,56.72
1410.0,56.71
1412.0,56.68
1414.0,56.67
1416.0,56.66
1418.0,56.66
1420.0,56.66
1422.0,56.66
1424.0,56.625
1426.0,56.6
1428.0,56.57
1430.0,56.57
1432.0,56.59
1434.0,56.59
1436.0,56.54
1438.0,56.48
1440.0,56.43
1442.0,56.41
1444.0,56.39
1446.0,56.35
1448.0,56.23
1450.0,56.12
1452.0,56.04
1454.0,55.95
1456.0,55.89
1458.0,55.79
1460.0,55.69
1462.0,55.57
1464.0,55.45
1466.0,55.35
1468.0,55.26
1470.0,55.16
1472.0,55.06
1474.0,54.98
1476.0,54.93
1478.0,54.9
1480.0,54.88
1482.0,54.86
1484.0,54.865
1486.0,54.88
1488.0,54.89
1490.0,54.92
1492.0,55.02
1494.0,55.16
1496.0,55.36
1498.0,55.54
1500.0,55.67
1502.0,55.78
1504.0,55.87
1506.0,55.98
1508.0,56.1
1510.0,56.19
1512.0,56.24
1514.0,56.28
1516.0,56.31
1518.0,56.36
1520.0,56.39
1522.0,56.39
1524.0,56.41
1526.0,56.41
1528.0,56.4
1530.0,56.41
1532.0,56.44
1534.0,56.445
1536.0,56.47
1538.0,56.51
1540.0,56.55
1542.0,56.58
1544.0,56.6
1546.0,56.6
1548.0,56.66
1550.0,56.68
1552.0,56.67
1554.0,56.67
1556.0,56.72
1558.0,56.79
1560.0,56.87
1562.0,56.92
1564.0,56.96
1566.0,57.05
1568.0,57.14
1570.0,57.2
1572.0,57.25
1574.0,57.235
1576.0,57.25
1578.0,57.305
1580.0,57.35
1582.0,57.41
1584.0,57.47
1586.0,57.53
1588.0,57.56
1590.0,57.57
1592.0,57.595
1594.0,57.66
1596.0,57.7
1598.0,57.76
1600.0,57.76
1602.0,57.78
1604.0,57.79
1606.0,57.82
1608.0,57.84
1610.0,57.86
1612.0,57.87
1614.0,57.88
1616.0,57.89
1618.0,57.93
1620.0,57.97
1622.0,57.97
1624.0,57.96
1626.0,57.97
1628.0,57.97
1630.0,58.01
1632.0,58.025
1634.0,58.04
1636.0,58.06
1638.0,58.04
1640.0,58.02
1642.0,58.025
1644.0,58.025
1646.0,58.04
1648.0,58.05
1650.0,58.07
1652.0,58.08
1654.0,58.06
1656.0,58.06
1658.0,58.09
1660.0,58.11
1662.0,58.11
1664.0,58.08
1666.0,58.07
1668.0,58.025
1670.0,58.0
1672.0,57.97
1674.0,57.97
1676.0,57.99
1678.0,58.02
1680.0,58.02
1682.0,58.025
1684.0,58.025
1686.0,58.025
1688.0,58.04
1690.0,58.025
1692.0,58.06
1694.0,58.07
1696.0,58.08
1698.0,58.12
1700.0,58.14
1702.0,58.13
1704.0,58.11
1706.0,58.08
1708.0,58.08
1710.0,58.07
1712.0,58.09
1714.0,58.025
1716.0,58.01
1718.0,58.01
1720.0,58.02
1722.0,58.05
1724.0,58.04
1726.0,58.025
1728.0,58.025
1730.0,58.01
1732.0,58.01
1734.0,58.0
1736.0,58.025
1738.0,58.04
1740.0,58.0
1742.0,57.99
1744.0,57.99
1746.0,57.97
1748.0,57.93
1750.0,57.87
1752.0,57.86
1754.0,57.87
1756.0,57.84
1758.0,57.82
1760.0,57.84
1762.0,57.86
1764.0,57.82
1766.0,57.76
1768.0,57.71
1770.0,57.7
1772.0,57.7
1774.0,57.68
1776.0,57.65
1778.0,57.61
1780.0,57.59
1782.0,57.57
1784.0,57.52
1786.0,57.45
1788.0,57.4
1790.0,57.37
1792.0,57.34
1794.0,57.305
1796.0,57.26
1798.0,57.22
1800.0,57.18
1802.0,57.14
1804.0,57.055
1806.0,56.98
1808.0,56.92
1810.0,56.87
1812.0,56.8
1814.0,56.72
1816.0,56.62
1818.0,56.54
1820.0,56.4
1822.0,56.22
1824.0,56.0
1826.0,55.74
1828.0,55.46
1830.0,55.21
1832.0,54.97
1834.0,54.79
1836.0,54.66
1838.0,54.575
1840.0,54.56
1842.0,54.62
1844.0,54.66
1846.0,54.72
1848.0,54.77
1850.0,54.74
1852.0,54.74
1854.0,54.685
1856.0,54.64
1858.0,54.59
1860.0,54.55
1862.0,54.55
1864.0,54.57
1866.0,54.61
1868.0,54.61
1870.0,54.575
1872.0,54.54
1874.0,54.505
1876.0,54.49
1878.0,54.47
1880.0,54.5
1882.0,54.56
1884.0,54.61
1886.0,54.67
1888.0,54.74
1890.0,54.77
1892.0,54.75
1894.0,54.71
1896.0,54.65
1898.0,54.575
1900.0,54.505
1902.0,54.42
1904.0,54.28
1906.0,54.21
1908.0,54.07
1910.0,53.93
1912.0,53.8
1914.0,53.62
1916.0,53.51
1918.0,53.38
1920.0,53.25
1922.0,53.14
1924.0,53.03
1926.0,52.94
1928.0,52.85
1930.0,52.79
1932.0,52.73
1934.0,52.7
1936.0,52.65
1938.0,52.58
1940.0,52.52
1942.0,52.5
1944.0,52.53
1946.0,52.51
1948.0,52.49
1950.0,52.49
1952.0,52.49
1954.0,52.54
1956.0,52.55
1958.0,52.54
1960.0,52.54
1962.0,52.56
1964.0,52.58
1966.0,52.59
1968.0,52.61
1970.0,52.64
1972.0,52.68
1974.0,52.65
1976.0,52.64
1978.0,52.69
1980.0,52.745
1982.0,52.83
1984.0,52.84
1986.0,52.84
1988.0,52.815
1990.0,52.815
1992.0,52.81
1994.0,52.78
1996.0,52.76
1998.0,52.78
2000.0,52.83
2002.0,52.85
2004.0,52.815
2006.0,52.77
2008.0,52.77
2010.0,52.745
2012.0,52.71
2014.0,52.66
2016.0,52.61
2018.0,52.59
2020.0,52.52
2022.0,52.47
2024.0,52.44
2026.0,52.44
2028.0,52.46
2030.0,52.48
2032.0,52.47
2034.0,52.44
2036.0,52.41
2038.0,52.37
2040.0,52.33
2042.0,52.3
2044.0,52.27
2046.0,52.25
2048.0,52.23
2050.0,52.19
2052.0,52.19
2054.0,52.19
2056.0,52.19
2058.0,52.22
2060.0,52.22
2062.0,52.28
2064.0,52.31
2066.0,52.31
2068.0,52.34
2070.0,52.385
2072.0,52.42
2074.0,52.47
2076.0,52.5
2078.0,52.53
2080.0,52.54
2082.0,52.46
2084.0,52.46
2086.0,52.46
2088.0,52.44
2090.0,52.385
2092.0,52.3
2094.0,52.31
2096.0,52.31
2098.0,52.29
2100.0,52.25
2102.0,52.23
2104.0,52.22
2106.0,52.18
2108.0,52.12
2110.0,52.05
2112.0,52.02
2114.0,51.99
2116.0,51.94
2118.0,51.91
2120.0,51.86
2122.0,51.82
2124.0,51.79
2126.0,51.73
2128.0,51.7
2130.0,51.62
2132.0,51.54
2134.0,51.45
2136.0,51.37
2138.0,51.33
2140.0,51.27
2142.0,51.21
2144.0,51.13
2146.0,51.04
2148.0,50.97
2150.0,50.89
2152.0,50.8
2154.0,50.73
2156.0,50.6
2158.0,50.445
2160.0,50.33
2162.0,50.25
2164.0,50.18
2166.0,50.085
2168.0,49.97
2170.0,49.89
2172.0,49.77
2174.0,49.6
2176.0,49.42
2178.0,49.22
2180.0,49.08
2182.0,48.93
2184.0,48.77
2186.0,48.56
2188.0,48.36
2190.0,48.21
2192.0,48.04
2194.0,47.9
2196.0,47.7
2198.0,47.51
2200.0,47.29
2202.0,47.06
2204.0,46.9
2206.0,46.72
2208.0,46.49
2210.0,46.24
2212.0,46.02
2214.0,45.84
2216.0,45.63
2218.0,45.37
2220.0,45.09
2222.0,44.8
2224.0,44.56
2226.0,44.29
2228.0,44.04
2230.0,43.75
2232.0,43.4
2234.0,43.01
2236.0,42.62
2238.0,42.23
2240.0,41.81
2242.0,41.43
2244.0,41.08
2246.0,40.79
2248.0,40.49
2250.0,40.22
2252.0,39.95
2254.0,39.785
2256.0,39.7
2258.0,39.65
2260.0,39.59
2262.0,39.56
2264.0,39.535
2266.0,39.5
2268.0,39.355
2270.0,39.17
2272.0,38.94
2274.0,38.74
2276.0,38.58
2278.0,38.45
2280.0,38.38
2282.0,38.35
2284.0,38.35
2286.0,38.44
2288.0,38.54
2290.0,38.64
2292.0,38.72
2294.0,38.9
2296.0,39.07
2298.0,39.24
2300.0,39.41
2302.0,39.55
2304.0,39.68
2306.0,39.77
2308.0,39.83
2310.0,39.86
2312.0,39.95
2314.0,40.08
2316.0,40.26
2318.0,40.47
2320.0,40.65
2322.0,40.89
2324.0,41.12
2326.0,41.31
2328.0,41.39
2330.0,41.44
2332.0,41.56
2334.0,41.68
2336.0,41.73
2338.0,41.68
2340.0,41.65
2342.0,41.63
2344.0,41.7
2346.0,41.71
2348.0,41.67
2350.0,41.54
2352.0,41.48
2354.0,41.44
2356.0,41.39
2358.0,41.27
2360.0,41.2
2362.0,41.14
2364.0,40.98
2366.0,40.77
2368.0,40.7
2370.0,40.6
2372.0,40.44
2374.0,40.23
2376.0,40.0
2378.0,39.77
2380.0,39.57
2382.0,39.38
2384.0,39.13
2386.0,38.86
2388.0,38.58
2390.0,38.33
2392.0,38.08
2394.0,37.87
2396.0,37.67
2398.0,37.41
2400.0,37.12
2402.0,36.94
2404.0,36.71
2406.0,36.535
2408.0,36.29
2410.0,36.11
2412.0,35.9
2414.0,35.87
2416.0,35.89
2418.0,35.87
2420.0,35.745
2422.0,35.68
2424.0,35.8
2426.0,35.925
2428.0,35.96
2430.0,35.86
2432.0,35.79
2434.0,35.745
2436.0,35.82
2438.0,35.81
2440.0,35.83
2442.0,35.88
2444.0,35.96
2446.0,36.03
2448.0,36.13
2450.0,36.17
2452.0,36.23
2454.0,36.29
2456.0,36.43
2458.0,36.46
2460.0,36.445
2462.0,36.445
2464.0,36.51
2466.0,36.52
2468.0,36.44
2470.0,36.4
2472.0,36.35
2474.0,36.25
2476.0,36.13
2478.0,36.05
2480.0,36.01
2482.0,35.94
2484.0,35.77
2486.0,35.6
2488.0,35.475
2490.0,35.36
2492.0,35.2
2494.0,34.955
2496.0,34.775
2498.0,34.61
2500.0,34.43
