wavelength,reflectivity
1300.0,55.58
1302.0,55.39
1304.0,55.21
1306.0,55.18
1308.0,55.22
1310.0,55.4
1312.0,55.47
1314.0,55.29
1316.0,55.24
1318.0,55.23
1320.0,55.26
1322.0,55.365
1324.0,55.39
1326.0,55.35
1328.0,55.38
1330.0,55.4
1332.0,55.43
1334.0,55.46
1336.0,55.47
1338.0,55.475
1340.0,55.545
1342.0,55.59
1344.0,55.64
1346.0,55.68
1348.0,55.69
1350.0,55.65
1352.0,55.655
1354.0,55.68
1356.0,55.72
1358.0,55.77
1360.0,55.76
1362.0,55.74
1364.0,55.74
1366.0,55.77
1368.0,55.79
1370.0,55.82
1372.0,55.835
1374.0,55.83
1376.0,55.81
1378.0,55.8
1380.0,55.78
1382.0,55.74
1384.0,55.655
1386.0,55.53
1388.0,55.365
1390.0,55.2
1392.0,55.03
1394.0,54.86
1396.0,54.685
1398.0,54.52
1400.0,54.38
1402.0,54.24
1404.0,54.07
1406.0,53.965
1408.0,53.88
1410.0,53.8
1412.0,53.77
1414.0,53.81
1416.0,53.895
1418.0,54.04
1420.0,54.17
1422.0,54.31
1424.0,54.44
1426.0,54.56
1428.0,54.685
1430.0,54.81
1432.0,54.91
1434.0,55.03
1436.0,55.11
1438.0,55.17
1440.0,55.25
1442.0,55.31
1444.0,55.36
1446.0,55.45
1448.0,55.51
1450.0,55.6
1452.0,55.64
1454.0,55.65
1456.0,55.67
1458.0,55.725
1460.0,55.79
1462.0,55.835
1464.0,55.835
1466.0,55.86
1468.0,55.905
1470.0,56.0
1472.0,56.08
1474.0,56.14
1476.0,56.16
1478.0,56.22
1480.0,56.28
1482.0,56.36
1484.0,56.44
1486.0,56.51
1488.0,56.58
1490.0,56.66
1492.0,56.72
1494.0,56.76
1496.0,56.83
1498.0,56.9
1500.0,56.98
1502.0,57.055
1504.0,57.13
1506.0,57.2
1508.0,57.28
1510.0,57.35
1512.0,57.43
1514.0,57.5
1516.0,57.55
1518.0,57.59
1520.0,57.65
1522.0,57.69
1524.0,57.76
1526.0,57.81
1528.0,57.83
1530.0,57.86
1532.0,57.91
1534.0,57.96
1536.0,58.025
1538.0,58.095
1540.0,58.16
1542.0,58.205
1544.0,58.23
1546.0,58.27
1548.0,58.31
1550.0,58.35
1552.0,58.37
1554.0,58.37
1556.0,58.4
1558.0,58.44
1560.0,58.48
1562.0,58.53
1564.0,58.58
1566.0,58.62
1568.0,58.62
1570.0,58.635
1572.0,58.66
1574.0,58.68
1576.0,58.72
1578.0,58.72
1580.0,58.75
1582.0,58.815
1584.0,58.89
1586.0,58.95
1588.0,58.96
1590.0,58.97
1592.0,58.995
1594.0,59.02
1596.0,59.06
1598.0,59.065
1600.0,59.05
1602.0,59.065
1604.0,59.065
1606.0,59.065
1608.0,59.08
1610.0,59.09
1612.0,59.12
1614.0,59.16
1616.0,59.19
1618.0,59.21
1620.0,59.2
1622.0,59.2
1624.0,59.19
1626.0,59.2
1628.0,59.21
1630.0,59.22
1632.0,59.24
1634.0,59.245
1636.0,59.245
1638.0,59.23
1640.0,59.2
1642.0,59.175
1644.0,59.175
1646.0,59.2
1648.0,59.23
1650.0,59.21
1652.0,59.21
1654.0,59.22
1656.0,59.24
1658.0,59.26
1660.0,59.27
1662.0,59.24
1664.0,59.24
1666.0,59.23
1668.0,59.175
1670.0,59.15
1672.0,59.11
1674.0,59.09
1676.0,59.1
1678.0,59.14
1680.0,59.16
1682.0,59.175
1684.0,59.17
1686.0,59.16
1688.0,59.17
1690.0,59.19
1692.0,59.22
1694.0,59.2
1696.0,59.22
1698.0,59.23
1700.0,59.23
1702.0,59.24
1704.0,59.245
1706.0,59.29
1708.0,59.31
1710.0,59.27
1712.0,59.22
1714.0,59.2
1716.0,59.23
1718.0,59.22
1720.0,59.175
1722.0,59.14
1724.0,59.14
1726.0,59.17
1728.0,59.2
1730.0,59.23
1732.0,59.23
1734.0,59.23
1736.0,59.22
1738.0,59.2
1740.0,59.17
1742.0,59.17
1744.0,59.22
1746.0,59.27
1748.0,59.28
1750.0,59.26
1752.0,59.23
1754.0,59.21
1756.0,59.22
1758.0,59.22
1760.0,59.19
1762.0,59.16
1764.0,59.16
1766.0,59.175
1768.0,59.19
1770.0,59.2
1772.0,59.2
1774.0,59.17
1776.0,59.175
1778.0,59.2
1780.0,59.22
1782.0,59.245
1784.0,59.21
1786.0,59.175
1788.0,59.175
1790.0,59.2
1792.0,59.22
1794.0,59.23
1796.0,59.2
1798.0,59.17
1800.0,59.16
1802.0,59.11
1804.0,59.12
1806.0,59.13
1808.0,59.14
1810.0,59.17
1812.0,59.15
1814.0,59.16
1816.0,59.17
1818.0,59.15
1820.0,59.15
1822.0,59.17
1824.0,59.17
1826.0,59.14
1828.0,59.09
1830.0,59.08
1832.0,59.08
1834.0,59.11
1836.0,59.1
1838.0,59.065
1840.0,59.05
1842.0,59.03
1844.0,58.99
1846.0,58.95
1848.0,58.92
1850.0,58.9
1852.0,58.87
1854.0,58.85
1856.0,58.8
1858.0,58.72
1860.0,58.63
1862.0,58.565
1864.0,58.5
1866.0,58.4
1868.0,58.23
1870.0,58.06
1872.0,57.9
1874.0,57.69
1876.0,57.45
1878.0,57.17
1880.0,56.89
1882.0,56.57
1884.0,56.22
1886.0,55.83
1888.0,55.43
1890.0,54.96
1892.0,54.43
1894.0,53.94
1896.0,53.47
1898.0,53.08
1900.0,52.69
1902.0,52.36
1904.0,52.06
1906.0,51.81
1908.0,51.62
1910.0,51.48
1912.0,51.4
1914.0,51.37
1916.0,51.36
1918.0,51.37
1920.0,51.41
1922.0,51.44
1924.0,51.48
1926.0,51.5
1928.0,51.52
1930.0,51.58
1932.0,51.65
1934.0,51.71
1936.0,51.75
1938.0,51.8
1940.0,51.9
1942.0,52.0
1944.0,52.05
1946.0,52.12
1948.0,52.2
1950.0,52.31
1952.0,52.42
1954.0,52.43
1956.0,52.47
1958.0,52.56
1960.0,52.68
1962.0,52.79
1964.0,52.86
1966.0,52.91
1968.0,52.99
1970.0,53.1
1972.0,53.2
1974.0,53.28
1976.0,53.4
1978.0,53.5
1980.0,53.62
1982.0,53.715
1984.0,53.785
1986.0,53.89
1988.0,54.02
1990.0,54.1
1992.0,54.18
1994.0,54.24
1996.0,54.3
1998.0,54.42
2000.0,54.505
2002.0,54.63
2004.0,54.755
2006.0,54.88
2008.0,54.98
2010.0,55.07
2012.0,55.18
2014.0,55.28
2016.0,55.39
2018.0,55.47
2020.0,55.54
2022.0,55.62
2024.0,55.69
2026.0,55.79
2028.0,55.9
2030.0,55.98
2032.0,56.08
2034.0,56.15
2036.0,56.22
2038.0,56.32
2040.0,56.4
2042.0,56.47
2044.0,56.51
2046.0,56.56
2048.0,56.625
2050.0,56.68
2052.0,56.68
2054.0,56.73
2056.0,56.76
2058.0,56.8
2060.0,56.83
2062.0,56.9
2064.0,56.98
2066.0,57.055
2068.0,57.1
2070.0,57.12
2072.0,57.17
2074.0,57.2
2076.0,57.2
2078.0,57.23
2080.0,57.2
2082.0,57.21
2084.0,57.2
2086.0,57.18
2088.0,57.22
2090.0,57.25
2092.0,57.26
2094.0,57.25
2096.0,57.235
2098.0,57.235
2100.0,57.235
2102.0,57.235
2104.0,57.25
2106.0,57.21
2108.0,57.235
2110.0,57.26
2112.0,57.305
2114.0,57.33
2116.0,57.28
2118.0,57.3
2120.0,57.32
2122.0,57.34
2124.0,57.35
2126.0,57.305
2128.0,57.32
2130.0,57.35
2132.0,57.36
2134.0,57.36
2136.0,57.4
2138.0,57.43
2140.0,57.46
2142.0,57.48
2144.0,57.44
2146.0,57.41
2148.0,57.43
2150.0,57.415
2152.0,57.38
2154.0,57.34
2156.0,57.305
2158.0,57.305
2160.0,57.33
2162.0,57.21
2164.0,57.13
2166.0,57.055
2168.0,56.99
2170.0,56.93
2172.0,56.8
2174.0,56.67
2176.0,56.51
2178.0,56.39
2180.0,56.28
2182.0,56.2
2184.0,56.03
2186.0,55.81
2188.0,55.62
2190.0,55.44
2192.0,55.24
2194.0,55.06
2196.0,54.92
2198.0,54.79
2200.0,54.63
2202.0,54.505
2204.0,54.45
2206.0,54.49
2208.0,54.48
2210.0,54.47
2212.0,54.53
2214.0,54.6
2216.0,54.685
2218.0,54.75
2220.0,54.92
2222.0,55.09
2224.0,55.13
2226.0,55.25
2228.0,55.39
2230.0,55.51
2232.0,55.49
2234.0,55.49
2236.0,55.51
2238.0,55.53
2240.0,55.57
2242.0,55.56
2244.0,55.545
2246.0,55.54
2248.0,55.58
2250.0,55.61
2252.0,55.54
2254.0,55.54
2256.0,55.54
2258.0,55.57
2260.0,55.54
2262.0,55.54
2264.0,55.54
2266.0,55.47
2268.0,55.45
2270.0,55.43
2272.0,55.41
2274.0,55.33
2276.0,55.23
2278.0,55.19
2280.0,55.18
2282.0,55.13
2284.0,55.06
2286.0,54.96
2288.0,54.89
2290.0,54.88
2292.0,54.865
2294.0,54.8
2296.0,54.685
2298.0,54.59
2300.0,54.49
2302.0,54.41
2304.0,54.36
2306.0,54.36
2308.0,54.31
2310.0,54.28
2312.0,54.25
2314.0,54.21
2316.0,54.13
2318.0,54.075
2320.0,54.06
2322.0,53.94
2324.0,53.84
2326.0,53.8
2328.0,53.785
2330.0,53.69
2332.0,53.53
2334.0,53.38
2336.0,53.29
2338.0,53.21
2340.0,53.17
2342.0,53.07
2344.0,53.06
2346.0,53.07
2348.0,53.15
2350.0,53.16
2352.0,53.17
2354.0,53.16
2356.0,53.14
2358.0,53.2
2360.0,53.21
2362.0,53.24
2364.0,53.24
2366.0,53.23
2368.0,53.22
2370.0,53.25
2372.0,53.27
2374.0,53.22
2376.0,53.14
2378.0,53.07
2380.0,52.94
2382.0,52.84
2384.0,52.76
2386.0,52.73
2388.0,52.65
2390.0,52.65
2392.0,52.65
2394.0,52.65
2396.0,52.56
2398.0,52.48
2400.0,52.41
2402.0,52.36
2404.0,52.26
2406.0,52.13
2408.0,52.025
2410.0,51.99
2412.0,51.94
2414.0,51.91
2416.0,51.845
2418.0,51.74
2420.0,51.61
2422.0,51.53
2424.0,51.415
2426.0,51.32
2428.0,51.11
2430.0,50.93
2432.0,50.83
2434.0,50.76
2436.0,50.68
2438.0,50.52
2440.0,50.375
2442.0,50.21
2444.0,50.12
2446.0,50.13
2448.0,50.1
2450.0,50.04
2452.0,49.91
2454.0,49.84
2456.0,49.73
2458.0,49.61
2460.0,49.45
2462.0,49.36
2464.0,49.28
2466.0,49.2
2468.0,49.14
2470.0,49.03
2472.0,48.94
2474.0,48.88
2476.0,48.84
2478.0,48.7
2480.0,48.5
2482.0,48.34
2484.0,48.28
2486.0,48.14
2488.0,48.06
2490.0,48.07
2492.0,48.18
2494.0,48.11
2496.0,47.93
2498.0,47.8
2500.0,47.74
