wavelength,reflectivity
1300.0,48.83
1302.0,48.88
1304.0,48.99
1306.0,49.05
1308.0,49.08
1310.0,48.89
1312.0,48.69
1314.0,48.47
1316.0,48.26
1318.0,48.17
1320.0,48.1
1322.0,47.88
1324.0,47.79
1326.0,47.71
1328.0,47.64
1330.0,47.64
1332.0,47.64
1334.0,47.71
1336.0,47.75
1338.0,47.7
1340.0,47.72
1342.0,47.73
1344.0,47.77
1346.0,47.83
1348.0,47.92
1350.0,48.0
1352.0,48.17
1354.0,48.41
1356.0,48.63
1358.0,48.86
1360.0,49.09
1362.0,49.3
1364.0,49.49
1366.0,49.64
1368.0,49.75
1370.0,49.88
1372.0,50.015
1374.0,50.16
1376.0,50.265
1378.0,50.37
1380.0,50.445
1382.0,50.5
1384.0,50.56
1386.0,50.61
1388.0,50.66
1390.0,50.69
1392.0,50.73
1394.0,50.77
1396.0,50.8
1398.0,50.83
1400.0,50.84
1402.0,50.83
1404.0,50.84
1406.0,50.85
1408.0,50.83
1410.0,50.82
1412.0,50.805
1414.0,50.805
1416.0,50.85
1418.0,50.88
1420.0,50.89
1422.0,50.88
1424.0,50.85
1426.0,50.805
1428.0,50.76
1430.0,50.68
1432.0,50.62
1434.0,50.59
1436.0,50.55
1438.0,50.52
1440.0,50.44
1442.0,50.33
1444.0,50.265
1446.0,50.18
1448.0,50.1
1450.0,50.0
1452.0,49.86
1454.0,49.74
1456.0,49.63
1458.0,49.5
1460.0,49.35
1462.0,49.15
1464.0,48.91
1466.0,48.66
1468.0,48.38
1470.0,48.12
1472.0,47.82
1474.0,47.5
1476.0,47.15
1478.0,46.81
1480.0,46.44
1482.0,46.09
1484.0,45.75
1486.0,45.46
1488.0,45.19
1490.0,44.91
1492.0,44.5
1494.0,43.97
1496.0,43.31
1498.0,42.5
1500.0,41.58
1502.0,40.53
1504.0,39.5
1506.0,38.62
1508.0,38.19
1510.0,38.33
1512.0,39.16
1514.0,40.54
1516.0,42.19
1518.0,43.72
1520.0,44.96
1522.0,45.86
1524.0,46.5
1526.0,46.95
1528.0,47.29
1530.0,47.55
1532.0,47.76
1534.0,47.93
1536.0,48.09
1538.0,48.23
1540.0,48.41
1542.0,48.65
1544.0,48.92
1546.0,49.26
1548.0,49.68
1550.0,50.08
1552.0,50.49
1554.0,50.87
1556.0,51.22
1558.0,51.52
1560.0,51.775
1562.0,51.99
1564.0,52.15
1566.0,52.3
1568.0,52.43
1570.0,52.58
1572.0,52.77
1574.0,52.94
1576.0,53.09
1578.0,53.21
1580.0,53.32
1582.0,53.43
1584.0,53.52
1586.0,53.63
1588.0,53.73
1590.0,53.82
1592.0,53.89
1594.0,53.87
1596.0,53.88
1598.0,53.91
1600.0,53.96
1602.0,53.99
1604.0,54.01
1606.0,54.04
1608.0,54.07
1610.0,54.075
1612.0,54.07
1614.0,54.06
1616.0,54.075
1618.0,54.09
1620.0,54.05
1622.0,54.04
1624.0,53.99
1626.0,53.94
1628.0,53.94
1630.0,53.94
1632.0,53.94
1634.0,53.93
1636.0,53.89
1638.0,53.88
1640.0,53.84
1642.0,53.78
1644.0,53.69
1646.0,53.57
1648.0,53.47
1650.0,53.3
1652.0,53.16
1654.0,53.04
1656.0,52.96
1658.0,52.9
1660.0,52.89
1662.0,52.94
1664.0,53.05
1666.0,53.105
1668.0,53.175
1670.0,53.25
1672.0,53.33
1674.0,53.43
1676.0,53.48
1678.0,53.52
1680.0,53.6
1682.0,53.68
1684.0,53.78
1686.0,53.86
1688.0,53.88
1690.0,53.88
1692.0,53.88
1694.0,53.88
1696.0,53.92
1698.0,53.96
1700.0,53.965
1702.0,53.965
1704.0,53.965
1706.0,53.98
1708.0,54.02
1710.0,54.075
1712.0,54.145
1714.0,54.23
1716.0,54.27
1718.0,54.29
1720.0,54.325
1722.0,54.37
1724.0,54.43
1726.0,54.49
1728.0,54.55
1730.0,54.6
1732.0,54.65
1734.0,54.7
1736.0,54.75
1738.0,54.79
1740.0,54.84
1742.0,54.86
1744.0,54.85
1746.0,54.88
1748.0,54.91
1750.0,54.935
1752.0,55.0
1754.0,55.03
1756.0,55.08
1758.0,55.17
1760.0,55.23
1762.0,55.28
1764.0,55.33
1766.0,55.36
1768.0,55.42
1770.0,55.47
1772.0,55.52
1774.0,55.545
1776.0,55.545
1778.0,55.57
1780.0,55.61
1782.0,55.655
1784.0,55.71
1786.0,55.69
1788.0,55.69
1790.0,55.68
1792.0,55.655
1794.0,55.655
1796.0,55.655
1798.0,55.67
1800.0,55.72
1802.0,55.75
1804.0,55.78
1806.0,55.79
1808.0,55.78
1810.0,55.77
1812.0,55.78
1814.0,55.79
1816.0,55.82
1818.0,55.83
1820.0,55.77
1822.0,55.76
1824.0,55.74
1826.0,55.75
1828.0,55.76
1830.0,55.74
1832.0,55.72
1834.0,55.71
1836.0,55.655
1838.0,55.67
1840.0,55.68
1842.0,55.68
1844.0,55.68
1846.0,55.67
1848.0,55.67
1850.0,55.68
1852.0,55.64
1854.0,55.61
1856.0,55.61
1858.0,55.6
1860.0,55.61
1862.0,55.61
1864.0,55.56
1866.0,55.545
1868.0,55.53
1870.0,55.51
1872.0,55.5
1874.0,55.44
1876.0,55.39
1878.0,55.33
1880.0,55.25
1882.0,55.22
1884.0,55.2
1886.0,55.15
1888.0,55.115
1890.0,55.05
1892.0,54.96
1894.0,54.89
1896.0,54.79
1898.0,54.685
1900.0,54.6
1902.0,54.46
1904.0,54.38
1906.0,54.31
1908.0,54.22
1910.0,54.18
1912.0,54.16
1914.0,54.14
1916.0,54.13
1918.0,54.1
1920.0,54.04
1922.0,53.98
1924.0,53.92
1926.0,53.895
1928.0,53.92
1930.0,53.91
1932.0,53.91
1934.0,53.91
1936.0,53.86
1938.0,53.85
1940.0,53.82
1942.0,53.785
1944.0,53.82
1946.0,53.85
1948.0,53.88
1950.0,53.895
1952.0,53.86
1954.0,53.85
1956.0,53.83
1958.0,53.82
1960.0,53.81
1962.0,53.81
1964.0,53.81
1966.0,53.785
1968.0,53.78
1970.0,53.78
1972.0,53.8
1974.0,53.81
1976.0,53.78
1978.0,53.77
1980.0,53.73
1982.0,53.7
1984.0,53.7
1986.0,53.7
1988.0,53.65
1990.0,53.65
1992.0,53.65
1994.0,53.63
1996.0,53.6
1998.0,53.52
2000.0,53.48
2002.0,53.47
2004.0,53.38
2006.0,53.31
2008.0,53.24
2010.0,53.17
2012.0,53.16
2014.0,53.1
2016.0,52.995
2018.0,52.9
2020.0,52.83
2022.0,52.76
2024.0,52.7
2026.0,52.6
2028.0,52.49
2030.0,52.45
2032.0,52.34
2034.0,52.22
2036.0,52.08
2038.0,51.93
2040.0,51.76
2042.0,51.57
2044.0,51.4
2046.0,51.25
2048.0,51.1
2050.0,50.86
2052.0,50.56
2054.0,50.34
2056.0,50.14
2058.0,50.01
2060.0,49.87
2062.0,49.66
2064.0,49.47
2066.0,49.36
2068.0,49.27
2070.0,49.26
2072.0,49.24
2074.0,49.29
2076.0,49.41
2078.0,49.54
2080.0,49.69
2082.0,49.84
2084.0,49.97
2086.0,50.085
2088.0,50.22
2090.0,50.35
2092.0,50.5
2094.0,50.64
2096.0,50.78
2098.0,50.91
2100.0,51.05
2102.0,51.18
2104.0,51.27
2106.0,51.36
2108.0,51.43
2110.0,51.51
2112.0,51.54
2114.0,51.59
2116.0,51.66
2118.0,51.775
2120.0,51.83
2122.0,51.845
2124.0,51.87
2126.0,51.82
2128.0,51.87
2130.0,51.89
2132.0,51.92
2134.0,51.97
2136.0,51.95
2138.0,51.98
2140.0,51.93
2142.0,51.9
2144.0,51.87
2146.0,51.83
2148.0,51.87
2150.0,51.83
2152.0,51.83
2154.0,51.775
2156.0,51.74
2158.0,51.75
2160.0,51.74
2162.0,51.77
2164.0,51.775
2166.0,51.73
2168.0,51.68
2170.0,51.62
2172.0,51.63
2174.0,51.61
2176.0,51.595
2178.0,51.57
2180.0,51.54
2182.0,51.52
2184.0,51.48
2186.0,51.45
2188.0,51.415
2190.0,51.39
2192.0,51.34
2194.0,51.27
2196.0,51.23
2198.0,51.19
2200.0,51.18
2202.0,51.1
2204.0,50.985
2206.0,50.92
2208.0,50.84
2210.0,50.87
2212.0,50.82
2214.0,50.85
2216.0,50.92
2218.0,51.03
2220.0,51.11
2222.0,51.1
2224.0,51.13
2226.0,51.14
2228.0,51.13
2230.0,51.1
2232.0,51.11
2234.0,51.1
2236.0,51.05
2238.0,50.97
2240.0,50.92
2242.0,50.94
2244.0,50.93
2246.0,50.86
2248.0,50.83
2250.0,50.8
2252.0,50.8
2254.0,50.805
2256.0,50.85
2258.0,50.93
2260.0,50.985
2262.0,51.03
2264.0,51.04
2266.0,51.01
2268.0,51.04
2270.0,51.07
2272.0,51.12
2274.0,51.09
2276.0,51.07
2278.0,51.1
2280.0,51.165
2282.0,51.2
2284.0,51.18
2286.0,51.165
2288.0,51.2
2290.0,51.22
2292.0,51.2
2294.0,51.21
2296.0,51.19
2298.0,51.21
2300.0,51.23
2302.0,51.23
2304.0,51.25
2306.0,51.31
2308.0,51.3
2310.0,51.26
2312.0,51.23
2314.0,51.28
2316.0,51.33
2318.0,51.345
2320.0,51.345
2322.0,51.29
2324.0,51.21
2326.0,51.19
2328.0,51.27
2330.0,51.3
2332.0,51.29
2334.0,51.31
2336.0,51.3
2338.0,51.25
2340.0,51.21
2342.0,51.19
2344.0,51.165
2346.0,51.09
2348.0,51.07
2350.0,51.1
2352.0,51.13
2354.0,51.08
2356.0,51.0
2358.0,51.01
2360.0,51.01
2362.0,50.95
2364.0,50.92
2366.0,50.93
2368.0,50.98
2370.0,50.9
2372.0,50.85
2374.0,50.78
2376.0,50.74
2378.0,50.77
2380.0,50.805
2382.0,50.84
2384.0,50.75
2386.0,50.66
2388.0,50.68
2390.0,50.71
2392.0,50.69
2394.0,50.65
2396.0,50.72
2398.0,50.72
2400.0,50.71
2402.0,50.68
2404.0,50.66
2406.0,50.65
2408.0,50.64
2410.0,50.73
2412.0,50.71
2414.0,50.66
2416.0,50.68
2418.0,50.74
2420.0,50.82
2422.0,50.75
2424.0,50.625
2426.0,50.46
2428.0,50.375
2430.0,50.31
2432.0,50.265
2434.0,50.23
2436.0,50.15
2438.0,50.08
2440.0,50.06
2442.0,50.05
2444.0,50.01
2446.0,49.92
2448.0,49.83
2450.0,49.78
2452.0,49.64
2454.0,49.58
2456.0,49.52
2458.0,49.46
2460.0,49.31
2462.0,49.22
2464.0,49.13
2466.0,49.02
2468.0,48.95
2470.0,48.88
2472.0,48.95
2474.0,48.86
2476.0,48.67
2478.0,48.51
2480.0,48.53
2482.0,48.5
2484.0,48.38
2486.0,48.18
2488.0,48.06
2490.0,47.93
2492.0,47.85
2494.0,47.79
2496.0,47.83
2498.0,47.74
2500.0,47.58
